<?xml version="1.0" encoding="utf-8" ?>
<Bundle xmlns="http://hl7.org/fhir">
	<id value="medical-records-submitted-example"/>
	<type value="message"/>
	<!--************************消息头****************************-->
	<entry>
		<resource>
			<MessageHeader xmlns="http://hl7.org/fhir">
				<!--1.1 消息ID（实例ID，重发不变）-->
				<id value="MessageHeader-0004"/>
				<!--消息事件 1..1-->
				<eventCoding>
					<!-- 0..1 事件类型 CodeSystem url  -->
					<system value="http://fhir.scwjxx.cn/Sichuan/CodeSystem/activity-code"/>
					<!-- 0..1 事件类型代码-->
					<code value="C01004"/>
					<!-- 0..1 事件类型名称 -->
					<display value="完整病历上传"/>
				</eventCoding>
				<!-- 1..1 消息源应用程序 -->
				<source>
					<!-- 0..1 系统名称（发送消息的系统） -->
					<name value="[string]"/>
					<!-- 0..1 软件名称（子系统名称） -->
					<software value="[string]"/>
					<!-- 0..1 运行的软件版本（当前版本） -->
					<version value="[string]"/>
					<!-- 1..1 ID地址(当前操作客户端IP地址) -->
					<endpoint value="[uri]"/>
				</source>
				<!--消息实际内容 0..*-->
				<focus>
					<!-- 0..1 Reference(Task) 关联任务信息（Task） -->
					<reference value="Task/medicalrecordssubmitted-example"/>
				</focus>
				<!-- 0..1 canonical(MessageDefinition) Link to the definition for this message -->
 				<definition value="MessageDefinition/md-medical-records-submitted"/>
			</MessageHeader>
		</resource>
	</entry>
	<!--************************病历提交任务（Task）******************************-->
	<entry>
		<resource>
			<Task xmlns="http://hl7.org/fhir">
				<id value="medicalrecordssubmitted-example"/>
				<!-- 0..1 canonical(ActivityDefinition) 关联ActivityDefinition -->
				<instantiatesCanonical value="http://fhir.scwjxx.cn/Sichuan/ActivityDefinition/ad-medical-records-submitted"/>
					
				<!-- 1..1 状态 draft | requested | received | accepted | + -->
				<status value="requested"/>
				<!-- 1..1 目的 unknown | proposal | plan | order | original-order | reflex-order | filler-order | instance-order | option -->
				<intent value="proposal"/>
				<!-- 0..1 CodeableConcept 事件类型 -->
				<businessStatus>
					<coding>
						<!-- 0..1 事件类型 CodeSystem url  -->
						<system value="http://fhir.scwjxx.cn/Sichuan/CodeSystem/activity-code"/>
						<!-- 0..1 事件类型代码-->
						<code value="C01004"/>
						<!-- 0..1 事件类型名称 -->
						<display value="完整病历上传"/>
					</coding>
				</businessStatus>
				<!-- 0..1 CodeableConcept Task Type 任务类型-->
				<code>
					<coding>
						<!-- 0..1 任务类型 CodeSystem url  -->
						<system value="http://hl7.org/fhir/CodeSystem/task-code"/>
						<!-- 0..1 任务类型代码-->
						<code value="approve"/>
						<!-- 0..1 任务类型名称 -->
						<display value="Activate/approve the focal resource"/>
					</coding>
				</code>
				<!-- 0..1 任务描述 -->
				<description value="患者到转入医院办理手续入院后，转出医院上传病历信息。"/>
				<!-- 0..1 Reference(Any) 关联该任务正在处理的资源 -->
				<focus>
					<reference value="List/List001-example"/>
				</focus>
				<!-- ?? 0..1 任务创建日期 -->
				<authoredOn value="2019-02-10T13:00:00Z"/>
				<!-- ?? 0..1 最后更新日期 -->
				<lastModified value="2019-02-10T13:00:00Z"/>
				<!-- 0..1 任务创建者，关联医护人员 -->
				<requester>
					<reference value="Practitioner/Practitioner001-example"/>
				</requester>
				<!-- 0..* 任务备注 -->
				<note>
					<!-- 1..1 The annotation  - text content (as markdown) -->
					<text value="[markdown]"/>
				</note>
			</Task>
		</resource>
	</entry>

	<!--************************病历集合******************************-->
	<entry>
		<resource>
			<List xmlns="http://hl7.org/fhir">
				<id value="List001-example"/>
				<!-- 1..1 列表状态 current | retired | entered-in-error -->
				<status value="current"/>
				<!-- 1..1 列表模式，这里选择快照 working | snapshot | changes -->
				<mode value="snapshot"/>
				<title value="患者张三的在院病历记录"/>
				<!-- 0..1 Descriptive name for the list -->
				<!-- 0..1 患者 -->
				<subject>
					<reference value="Patient/Patient001-example"/>
				</subject>
				<!-- 0..1 病历集合生成日期 -->
				<date value="2019-02-10T13:00:00Z"/>
				<!--  0..* 病历列表条目-->
				<entry>
					<!-- 1..1 关联病历文档 1-->
					<item>
						<reference value="DocumentReference/DocumentReference002-example"/>
					</item>
				</entry>
				<entry>
					<!-- 1..1 关联病历文档 2-->
					<item>
						<reference value="DocumentReference/DocumentReference003-example"/>
					</item>
				</entry>
				<entry>
					<!-- 1..1 关联病历文档 3-->
					<item>
						<reference value="DocumentReference/DocumentReference004-example"/>
					</item>
				</entry>
			</List>
		</resource>
	</entry>


	<!--************************检验报告******************************-->
	<entry>
		<resource>
			<DocumentReference xmlns="http://hl7.org/fhir">
				<!--0..1 病历文档ID-->
				<id value="DocumentReference002-example"/>

				<meta>
					<profile value="http://fhir.scwjxx.cn/Sichuan/StructureDefinition/medical-record-documentation"/>
				</meta>
				<!-- 0..1 病历文档标识符 -->
				<masterIdentifier>
					<!-- 0..1 病历文档标识符NamingSystem uri-->
					<system value="http://fhir.scwjxx.cn/Sichuan/NamingSystem/document-Identifier"/>
					<!-- 0..1 病历文档标识符 -->
					<value value="DocumentReference002-example"/>
				</masterIdentifier>
				<!-- 1..1 文档引用状态  current | superseded | entered-in-error -->
				<status >
					<extension url="http://fhir.scwjxx.cn/Sichuan/StructureDefinition/resource-status">
						<valueCoding>
							<!-- 0..1 文档引用状态 CodeSystem url -->
							<system value="http://hl7.org/fhir/document-reference-status"/>
							<!-- 0..1 文档引用状态代码-->
							<code value="current"/>
							<!-- 0..1 文档引用状态说明 -->
							<display value="Current"/>
						</valueCoding>
					</extension>
				</status>
				<!-- 0..1 文档类型 （固定为 城乡居民健康档案基本数据集）-->
				<type>
					<coding>
						<!-- 文档类型CodeSystem  地址 -->
						<system value="http://fhir.scwjxx.cn/Sichuan/CodeSystem/document-type"/>
						<!-- 0..1 文档类型编码 -->
						<code value="WS365-2011"/>
						<!-- 0..1 文档类型名称 -->
						<display value="城乡居民健康档案基本数据集"/>
					</coding>
				</type>
				<!-- 0..* 文档类别(固定为  转诊（院）记录) -->
				<category>
					<coding>
						<!-- 文档类别CodeSystem  地址 -->
						<system value="http://fhir.scwjxx.cn/Sichuan/CodeSystem/document-category"/>
						<!-- 0..1 文档类别编码 -->
						<code value="HSDC00.09"/>
						<!-- 0..1 文档类别名称 -->
						<display value="检验报告"/>
					</coding>
				</category>
				<!-- 0..1 患者 -->
				<subject>
					<reference value="Patient/Patient001-example"/>
				</subject>
				<!-- 0..1 文档编写日期 -->
				<date value="2019-02-20T13:00:00Z"/>
				<!-- 0..* Reference(Practitioner|PractitionerRole|Organization|Device|
   Patient|RelatedPerson) 文档编写者 -->
				<author>
					<reference value="Practitioner/Practitioner001-example"/>
				</author>
				<!-- 0..1 文档审核者 -->
				<authenticator>
					<reference value="Practitioner/Practitioner001-example"/>
				</authenticator>
				<!-- 0..1 Reference(Organization) 管理机构（管理文档的医疗机构） -->
				<custodian>
					<reference value="Organization/Hospital001-example"/>
				</custodian>
				<!-- 0..1 文档描述 -->
				<description value="城乡居民健康档案基本数据集-检验报告"/>
				<!-- 0..* 安全级别 -->
				<securityLabel>
					<coding>
						<!-- 安全级别CodeSystem  地址 -->
						<system value="http://fhir.scwjxx.cn/Sichuan/CodeSystem/security-labels"/>
						<!-- 0..1 安全级别编码 -->
						<code value="N"/>
						<!-- 0..1 安全级别名称 -->
						<display value="中级"/>
					</coding>
				</securityLabel>
				<!-- 1..* 文档正文 -->
				<content>
					<!-- 1..1 附件 -->
					<attachment>
						<!-- 0..1 文档的Mime type -->
						<contentType value="HTML"/>
						<!-- 0..1 Human language of the content (BCP-47) （zh-CN）-->
						<language value="zh-CN"/>
						<!-- 0..1 文档URL -->
						<url value="http://document.com/medical-record-documentation-00001"/>
						<!-- 0..1 文件大小 -->
						<size value="24"/>
						<!-- 0..1 文档标题 -->
						<title value="检验报告"/>
						<!-- 0..1 创建该附件日期 -->
						<creation value="2019-02-20T13:00:00Z"/>
					</attachment>
				</content>
			</DocumentReference>

		</resource>
	</entry>
	<!--************************西药处方******************************-->
	<entry>
		<resource>
			<DocumentReference xmlns="http://hl7.org/fhir">
				<!--0..1 病历文档ID-->
				<id value="DocumentReference003-example"/>

				<meta>
					<profile value="http://fhir.scwjxx.cn/Sichuan/StructureDefinition/medical-record-documentation"/>
				</meta>
				<!-- 0..1 病历文档标识符 -->
				<masterIdentifier>
					<!-- 0..1 病历文档标识符NamingSystem uri-->
					<system value="http://fhir.scwjxx.cn/Sichuan/NamingSystem/document-Identifier"/>
					<!-- 0..1 病历文档标识符 -->
					<value value="DocumentReference003-example"/>
				</masterIdentifier>
				<!-- 1..1 文档引用状态  current | superseded | entered-in-error -->
				<status >
					<extension url="http://fhir.scwjxx.cn/Sichuan/StructureDefinition/resource-status">
						<valueCoding>
							<!-- 0..1 文档引用状态 CodeSystem url -->
							<system value="http://hl7.org/fhir/document-reference-status"/>
							<!-- 0..1 文档引用状态代码-->
							<code value="current"/>
							<!-- 0..1 文档引用状态说明 -->
							<display value="Current"/>
						</valueCoding>
					</extension>
				</status>
				<!-- 0..1 文档类型 （固定为 城乡居民健康档案基本数据集）-->
				<type>
					<coding>
						<!-- 文档类型CodeSystem  地址 -->
						<system value="http://fhir.scwjxx.cn/Sichuan/CodeSystem/document-type"/>
						<!-- 0..1 文档类型编码 -->
						<code value="WS365-2011"/>
						<!-- 0..1 文档类型名称 -->
						<display value="城乡居民健康档案基本数据集"/>
					</coding>
				</type>
				<!-- 0..* 文档类别(固定为  转诊（院）记录) -->
				<category>
					<coding>
						<!-- 文档类别CodeSystem  地址 -->
						<system value="http://fhir.scwjxx.cn/Sichuan/CodeSystem/document-category"/>
						<!-- 0..1 文档类别编码 -->
						<code value="HSDC00.11"/>
						<!-- 0..1 文档类别名称 -->
						<display value="西药处方"/>
					</coding>
				</category>
				<!-- 0..1 患者 -->
				<subject>
					<reference value="Patient/Patient001-example"/>
				</subject>
				<!-- 0..1 文档编写日期 -->
				<date value="2019-02-20T13:00:00Z"/>
				<!-- 0..* Reference(Practitioner|PractitionerRole|Organization|Device|
			   Patient|RelatedPerson) 文档编写者 -->
				<author>
					<reference value="Practitioner/Practitioner001-example"/>
				</author>
				<!-- 0..1 文档审核者 -->
				<authenticator>
					<reference value="Practitioner/Practitioner001-example"/>
				</authenticator>
				<!-- 0..1 Reference(Organization) 管理机构（管理文档的医疗机构） -->
				<custodian>
					<reference value="Organization/Hospital001-example"/>
				</custodian>
				<!-- 0..1 文档描述 -->
				<description value="城乡居民健康档案基本数据集-西药处方"/>
				<!-- 0..* 安全级别 -->
				<securityLabel>
					<coding>
						<!-- 安全级别CodeSystem  地址 -->
						<system value="http://fhir.scwjxx.cn/Sichuan/CodeSystem/security-labels"/>
						<!-- 0..1 安全级别编码 -->
						<code value="N"/>
						<!-- 0..1 安全级别名称 -->
						<display value="中级"/>
					</coding>
				</securityLabel>
				<!-- 1..* 文档正文 -->
				<content>
					<!-- 1..1 附件 -->
					<attachment>
						<!-- 0..1 文档的Mime type -->
						<contentType value="HTML"/>
						<!-- 0..1 Human language of the content (BCP-47) （zh-CN）-->
						<language value="zh-CN"/>
						<!-- 0..1 文档URL -->
						<url value="http://document.com/medical-record-documentation-00001"/>
						<!-- 0..1 文件大小 -->
						<size value="24"/>
						<!-- 0..1 文档标题 -->
						<title value="西药处方"/>
						<!-- 0..1 创建该附件日期 -->
						<creation value="2019-02-20T13:00:00Z"/>
					</attachment>
				</content>
			</DocumentReference>
		</resource>
	</entry>
	<!--************************出院小结******************************-->
	<entry>
		<resource>
			<DocumentReference xmlns="http://hl7.org/fhir">
				<!--0..1 病历文档ID-->
				<id value="DocumentReference004-example"/>

				<meta>
					<profile value="http://fhir.scwjxx.cn/Sichuan/StructureDefinition/medical-record-documentation"/>
				</meta>
				<!-- 0..1 病历文档标识符 -->
				<masterIdentifier>
					<!-- 0..1 病历文档标识符NamingSystem uri-->
					<system value="http://fhir.scwjxx.cn/Sichuan/NamingSystem/document-Identifier"/>
					<!-- 0..1 病历文档标识符 -->
					<value value="DocumentReference004-example"/>
				</masterIdentifier>
				<!-- 1..1 文档引用状态  current | superseded | entered-in-error -->
				<status >
					<extension url="http://fhir.scwjxx.cn/Sichuan/StructureDefinition/resource-status">
						<valueCoding>
							<!-- 0..1 文档引用状态 CodeSystem url -->
							<system value="http://hl7.org/fhir/document-reference-status"/>
							<!-- 0..1 文档引用状态代码-->
							<code value="current"/>
							<!-- 0..1 文档引用状态说明 -->
							<display value="Current"/>
						</valueCoding>
					</extension>
				</status>
				<!-- 0..1 文档类型 （固定为 城乡居民健康档案基本数据集）-->
				<type>
					<coding>
						<!-- 文档类型CodeSystem  地址 -->
						<system value="http://fhir.scwjxx.cn/Sichuan/CodeSystem/document-type"/>
						<!-- 0..1 文档类型编码 -->
						<code value="WS365-2011"/>
						<!-- 0..1 文档类型名称 -->
						<display value="城乡居民健康档案基本数据集"/>
					</coding>
				</type>
				<!-- 0..* 文档类别(固定为  转诊（院）记录) -->
				<category>
					<coding>
						<!-- 文档类别CodeSystem  地址 -->
						<system value="http://fhir.scwjxx.cn/Sichuan/CodeSystem/document-category"/>
						<!-- 0..1 文档类别编码 -->
						<code value="HSDC00.23"/>
						<!-- 0..1 文档类别名称 -->
						<display value="出院小结"/>
					</coding>
				</category>
				<!-- 0..1 患者 -->
				<subject>
					<reference value="Patient/Patient001-example"/>
				</subject>
				<!-- 0..1 文档编写日期 -->
				<date value="2019-02-20T13:00:00Z"/>
				<!-- 0..* Reference(Practitioner|PractitionerRole|Organization|Device|
   Patient|RelatedPerson) 文档编写者 -->
				<author>
					<reference value="Practitioner/Practitioner001-example"/>
				</author>
				<!-- 0..1 文档审核者 -->
				<authenticator>
					<reference value="Practitioner/Practitioner001-example"/>
				</authenticator>
				<!-- 0..1 Reference(Organization) 管理机构（管理文档的医疗机构） -->
				<custodian>
					<reference value="Organization/Hospital001-example"/>
				</custodian>
				<!-- 0..1 文档描述 -->
				<description value="城乡居民健康档案基本数据集-出院小结"/>
				<!-- 0..* 安全级别 -->
				<securityLabel>
					<coding>
						<!-- 安全级别CodeSystem  地址 -->
						<system value="http://fhir.scwjxx.cn/Sichuan/CodeSystem/security-labels"/>
						<!-- 0..1 安全级别编码 -->
						<code value="N"/>
						<!-- 0..1 安全级别名称 -->
						<display value="中级"/>
					</coding>
				</securityLabel>
				<!-- 1..* 文档正文 -->
				<content>
					<!-- 1..1 附件 -->
					<attachment>
						<!-- 0..1 文档的Mime type -->
						<contentType value="HTML"/>
						<!-- 0..1 Human language of the content (BCP-47) （zh-CN）-->
						<language value="zh-CN"/>
						<!-- 0..1 文档URL -->
						<url value="http://document.com/medical-record-documentation-00001"/>
						<!-- 0..1 文件大小 -->
						<size value="24"/>
						<!-- 0..1 文档标题 -->
						<title value="出院小结"/>
						<!-- 0..1 创建该附件日期 -->
						<creation value="2019-02-20T13:00:00Z"/>
					</attachment>
				</content>
			</DocumentReference>
		</resource>
	</entry>





</Bundle>
