<?xml version="1.0" encoding="utf-8" ?>
<Bundle xmlns="http://hl7.org/fhir">
	<id value="slot-of-clinic-visits-example"/>
	<type value="message"/>
	<!--************************消息头****************************-->
	<entry>
		<resource>
			<MessageHeader xmlns="http://hl7.org/fhir">
				<!--1.1 消息ID（实例ID，重发不变）-->
				<id value="MessageHeader-0001"/>
				<!--消息事件 1..1-->
				<eventCoding>
					<!-- 0..1 事件类型 CodeSystem url  -->
					<system value="http://fhir.scwjxx.cn/Sichuan/CodeSystem/bussiness-event-code"/>
					<!-- 0..1 事件类型代码-->
					<code value="C03002"/>
					<!-- 0..1 事件类型名称 -->
					<display value="确定门诊时段"/>
				</eventCoding>
				<!-- 1..1 消息源应用程序 -->
				<source>
					<!-- 0..1 系统名称（发送消息的系统） -->
					<name value="[string]"/>
					<!-- 0..1 软件名称（子系统名称） -->
					<software value="[string]"/>
					<!-- 0..1 运行的软件版本（当前版本） -->
					<version value="[string]"/>
					<!-- 1..1 ID地址(当前操作客户端IP地址) -->
					<endpoint value="[uri]"/>
				</source>
				<!--消息实际内容 0..*-->
				<focus>
					<!-- 0..1 Reference(Task) 关联工作流信息 -->
					<reference value="Task/SlotVisits-example"/>
				</focus>
				<!-- 0..1 canonical(MessageDefinition) Link to the definition for this message -->
				<definition value="http://fhir.scwjxx.cn/Sichuan/MessageDefinition/md-slot-of-clinic-visits"/>
			</MessageHeader>
		</resource>
	</entry>
	
	
	
  <!--************************确定排班信息******************************-->
  <entry>
    <resource>
      <Task xmlns="http://hl7.org/fhir">
        <id value="SlotVisits-example"/>
        <!-- 0..1 canonical(ActivityDefinition) 关联ActivityDefinition -->
        <instantiatesCanonical value="http://fhir.scwjxx.cn/Sichuan/ActivityDefinition/ad-slot-of-clinic-visits"/>
        <!-- 1..1 状态 draft | requested | received | accepted | + -->
        <status value="requested"/>

        <!-- 1..1 目的 unknown | proposal | plan | order | original-order | reflex-order | filler-order | instance-order | option -->
        <intent value="proposal"/>

        <!-- 0..1 CodeableConcept 事件类型 -->
        <businessStatus>
          <coding>
            <!-- 0..1 事件类型 CodeSystem url  -->
            <system value="http://fhir.scwjxx.cn/Sichuan/CodeSystem/bussiness-event-code"/>
            <!-- 0..1 事件类型代码-->
            <code value="C03002"/>
            <!-- 0..1 事件类型名称 -->
            <display value="确定门诊时段"/>
          </coding>
        </businessStatus>

        <!-- 0..1 CodeableConcept Task Type 任务类型-->
        <code>
          <coding>
            <!-- 0..1 任务类型 CodeSystem url  -->
            <system value="http://hl7.org/fhir/CodeSystem/task-code"/>
            <!-- 0..1 任务类型代码-->
            <code value="approve"/>
            <!-- 0..1 任务类型名称 -->
            <display value="Activate/approve the focal resource"/>
          </coding>
        </code>
        <!-- 0..1 任务描述 -->
        <description value="根据排班信息确定本次内的时段信息。，包括时段的时间段，关联的班次。"/>
        <!-- 0..1 Reference(Any) 关联该任务正在处理的资源 -->
        <focus>
          <reference value="Schedule/ScheduleOfClinicVisits-example"/>
        </focus>
        <!-- ?? 0..1 任务创建日期 -->
        <authoredOn value="2019-02-10T13:00:00Z"/>
        <!-- ?? 0..1 最后更新日期 -->
        <lastModified value="2019-02-10T13:00:00Z"/>
        <!-- 0..1 任务创建者，关联医护人员 -->
        <requester>
          <reference value="Practitioner/Practitioner001-example"/>
        </requester>

        <!-- 0..* 任务备注 -->
        <note>
          <!-- 1..1 The annotation  - text content (as markdown) -->
          <text value="[markdown]"/>
        </note>
      </Task>
    </resource>
  </entry>
							
					
<!--************************时段信息******************************-->
	<entry>
		<resource>
		
				<Slot xmlns="http://hl7.org/fhir">
			  <id value="OutpatientSlot-example"/>
			  <meta>
				<profile value="http://fhir.scwjxx.cn/Sichuan/StructureDefinition/outpatient-slot"/>
			  </meta>
					
			  <!-- 0..1 患者预约的类型（非服务类型） -->
			  <appointmentType>
				<coding>
				  <!-- 0..1 服务项目分类 CodeSystem url  -->
				  <system value="http://fhir.scwjxx.cn/Sichuan/CodeSystem/appointment-type"/>
				  <!-- 0..1 服务项目分类代码-->
				  <code value="01"/>
				  <!-- 0..1 服务项目分类 -->
				  <display value="网上预约"/>
				</coding>
			  </appointmentType>

			  <!--0..1 FHIR扩展，号源数 -->
			  <extension url="http://fhir.scwjxx.cn/Sichuan/StructureDefinition/source-number" >
				<valueRatio>
				  <!-- 0..1 已经挂号数字 -->
				  <numerator>
					<!-- 0..1 数量 -->
					<value value="20"/>
					<!-- 0..1 单位 -->
					<unit value="个"/>
				  </numerator>
				  <!-- 0..1 总号源数字 -->
				  <denominator>
					<!-- 0..1 数量 -->
					<value value="100"/>
					<!-- 0..1 单位 -->
					<unit value="个"/>
				  </denominator>
				</valueRatio>
			  </extension>


			  <!-- 1..1 排班信息 -->
			  <schedule>
				<!-- 0..1 Reference(Schedule) 关联排班信息 -->
				<reference value="Schedule/ScheduleOfClinicVisits-example"/>
			  </schedule>

			  <!-- 1..1 状态  busy | free | busy-unavailable | busy-tentative | entered-in-error  -->
			  <status value="busy"/>

			  <!-- 1..1 开始时段-->
			  <start value="2019-02-08T13:00:00Z"/>
			  <!-- 1..1 结束时段 -->
			  <end value="2019-02-09T13:00:00Z"/>
			</Slot>
		</resource>
	</entry>

	

	<!--************************医护人员信息******************************-->
	<entry>
		<resource>
			<Practitioner xmlns="http://hl7.org/fhir">
				<id value="Practitioner001-example"/>
				<meta>
					<profile value="http://fhir.scwjxx.cn/Sichuan/StructureDefinition/Practitioner"/>
				</meta>
				<!--1..* 身份证件号 -->
				<identifier>
					<!--证件类型-->
					<type>
						<coding>
							<!-- 证件类型CodeSystem  地址 -->
							<system value="http://fhir.scwjxx.cn/Sichuan/CodeSystem/identity-document-type"/>
							<!-- 0..1 证件类别编码 -->
							<code value="01"/>
							<!-- 0..1 证件类别名称 -->
							<display value="身份证"/>
						</coding>
					</type>
					<!--0..1 身份证件号码NamingSystem uri-->
					<system value="http://fhir.scwjxx.cn/Sichuan/NamingSystem/identityDocument"/>
					<!-- 0..1 身份证件号码 -->
					<value value="511002198609021982"/>
				</identifier>
				<active value="true"/>
				<!-- 0..* 姓名 -->
				<name>
					<!-- 0..1 全名 -->
					<text value="李明明"/>
				</name>
				<telecom>
					<!--  0..1 类型 phone | fax | email | pager | url | sms | other -->
					<system value="phone"/>
					<!-- 0..1 电话号码 -->
					<value value="13309092736"/>
				</telecom>
				<!--  0..1 电子邮箱 -->
				<telecom>
					<!--  0..1 类型 phone | fax | email | pager | url | sms | other -->
					<system value="email"/>
					<!-- 0..1 电子邮箱 -->
					<value value="263736484@qq.com"/>
				</telecom>
				<!-- 0..* 地址-->
				<address>
					<!-- 0..1 地址的完整描述 -->
					<text value="成都市XXX区XXX小区XXXX号"/>
				</address>
				<!-- 0..1 生理性别 -->
				<gender>
					<extension url="http://fhir.scwjxx.cn/Sichuan/StructureDefinition/sexual-distinction-of-human">
						<valueCoding>
							<!-- 0..1 生理性别 CodeSystem url  地址-->
							<system value="http://fhir.scwjxx.cn/Sichuan/CodeSystem/physiological-gender"/>
							<!-- 0..1 生理性别代码-->
							<code value="01"/>
							<!-- 0..1 生理性别说明 -->
							<display value="男"/>
						</valueCoding>
					</extension>
				</gender>
				<!-- 0..1 出生日期 -->
				<birthDate value="1980-01-01"/>
				<!-- 0..* 照片 -->
				<photo>
					<!-- 0..1 uri地址 -->
					<url value="http://www.cctrry.com/images/image1.png"/>
					<!-- 0..1 标题 -->
					<title value="头像"/>
				</photo>
				<photo>
					<!-- 0..1 uri地址 -->
					<url value="http://www.cctrry.com/images/image2.png"/>
					<!-- 0..1 标题 -->
					<title value="寸照"/>
				</photo>
				<extension url="http://fhir.scwjxx.cn/Sichuan/StructureDefinition/BriefIntroduction">
					<valueString value="擅长运用中医、中西医结合治疗血小板减少、血小板增多等血液疾病独树一帜，她在多年临床发现治疗血液病单纯靠西药激素治疗并不理想，立志另辟蹊径潜心进修中医，对多种疑难病症有着丰富的临床诊疗经验。"/>
				</extension>
				<!-- 0..1 国籍   GB/T 2659 世界各国和地区名称代码-->
				<extension url="http://fhir.scwjxx.cn/Sichuan/StructureDefinition/Nationality">
					<valueCoding>
						<!-- 0..1 世界各国和地区名称代码 CodeSystem url  地址  -->
						<system value="http://fhir.scwjxx.cn/Sichuan/CodeSystem/countries-and-regions"/>
						<!-- 0..1 世界各国和地区名称代码-->
						<code value="64"/>
						<!-- 0..1 世界各国和地区名称代码说明 -->
						<display value="中华人民共和国"/>
					</valueCoding>
				</extension>
				<!-- 0..1 民族  中华56个民族代码， GB 3304-->
				<extension url="http://fhir.scwjxx.cn/Sichuan/StructureDefinition/ChineseEthnicity">
					<valueCoding>
						<!-- 0..1 民族类别 CodeSystem url  地址-->
						<system value="http://fhir.scwjxx.cn/Sichuan/CodeSystem/nationalites-of-PRC"/>
						<!-- 0..1 民族类别代码-->
						<code value="01"/>
						<!-- 0..1 民族类别说明 -->
						<display value="汉族"/>
					</valueCoding>
				</extension>
				<!-- 0..1 政治面貌， GB 4762-1984-->
				<extension url="http://fhir.scwjxx.cn/Sichuan/StructureDefinition/sexual-distinction-of-human">
					<extension url="orgnaztion">
						<valueCoding>
							<!-- 0..1 政治面貌 CodeSystem url  地址-->
							<system value="http://fhir.scwjxx.cn/Sichuan/CodeSystem/politic-affiliation"/>
							<!-- 0..1 政治面貌代码-->
							<code value="01"/>
							<!-- 0..1 政治面貌说明 -->
							<display value="群众"/>
						</valueCoding>
					</extension>
				</extension>
				<!-- 0..1 参加工作日期-->
				<extension url="http://fhir.scwjxx.cn/Sichuan/StructureDefinition/date-start-work">
					<valueDate value="2014-01-01"/>
				</extension>
				<!-- 0..1 是否多地点执业医师-->
				<extension url="http://fhir.scwjxx.cn/Sichuan/StructureDefinition/is-work-for-multi-org">
					<valueBoolean value="false"/>
				</extension>
			</Practitioner>
		</resource>
	</entry>

</Bundle>


