<?xml version="1.0" encoding="utf-8" ?>
<Bundle xmlns="http://hl7.org/fhir">
	<id value="hospital-referral-RESTful-example"/>
	<type value="transaction-response"/>

	<!--************************转诊申请******************************-->
	<entry>
		<resource>
			<Appointment xmlns="http://hl7.org/fhir">
				<!-- 0..1 住院转诊预约逻辑ID -->
				<id value="HospitalReferral-example"/>
				<meta>
					<profile value="http://StructureDefinition.hl7fhir.cn/hospital-referral"/>
				</meta>
				<!-- 0..* 转诊编号 -->
				<identifier>
					<!-- 0..1 转诊编号NamingSystem uri-->
					<system value="http://NamingSystem.hl7fhir.cn/hospital-referral-identifier"/>
					<!-- 0..1 转诊编号 -->
					<value value="Appointment00001"/>
				</identifier>
				<!-- 1..1 预约状态 -->
				<status value="booked">
					<extension url="http://StructureDefinition.hl7fhir.cn/resource-status">
						<valueCoding>
							<!-- 0..1 预约状态 CodeSystem url -->
							<system value=" http://hl7.org/fhir/appointmentstatus"/>
							<!-- 0..1 预约状态代码-->
							<code value="proposed"/>
							<!-- 0..1 预约状态说明 -->
							<display value="proposed"/>
						</valueCoding>
					</extension>
				</status>
				<!-- 0..1 服务类别 -->
				<serviceCategory>
					<coding>
						<!-- 0..1 服务类别 CodeSystem url  -->
						<system value="http://CodeSystem.hl7fhir.cn/service-category"/>
						<!-- 0..1 服务类别代码-->
						<code value="01"/>
						<!-- 0..1 服务类别名称 -->
						<display value="医疗服务"/>
					</coding>
				</serviceCategory>
				<!-- 0..1 服务项目分类 -->
				<serviceType>
					<coding>
						<!-- 0..1 服务项目分类 CodeSystem url  -->
						<system value="http://CodeSystem.hl7fhir.cn/service-type"/>
						<!-- 0..1 服务项目分类代码-->
						<code value="03"/>
						<!-- 0..1 服务项目分类 -->
						<display value="转诊预约"/>
					</coding>
				</serviceType>
				<!-- 0..1 预约期间开始时间 -->
				<start value="2019-02-12T13:00:00Z"/>
				<!-- 0..1  预约期间结束时间 -->
				<end value="2019-02-20T13:00:00Z"/>
				<!-- 0..* Reference(Any) 该次预约的相关信息（转诊病历） -->
				<supportingInformation>
					<reference value="DocumentReference/DocumentReference001-example"/>
				</supportingInformation>
				<!-- 0..1 预约申请时间 -->
				<created value="2019-02-10T13:00:00Z"/>
				<!-- 0..1 注意事项 -->
				<patientInstruction value="转诊手续完成，请患者到接收医院报到。"/>
				<!-- 1..1 医生 -->
				<participant>
					<!-- 0..1 参与者角色 -->
					<type>
						<coding>
							<!-- 0..1 参与者角色 CodeSystem url  -->
							<system value="http://CodeSystem.hl7fhir.cn/encounter-participant-type"/>
							<!-- 0..1 参与者角色代码-->
							<code value="01"/>
							<!-- 0..1 参与者角色 -->
							<display value="责任医生"/>
						</coding>
					</type>
					<!-- 0..1  Reference(Practitioner）关联医护人员信息 -->
					<actor>
						<reference value="Practitioner/Practitioner001-example"/>
					</actor>
					<!-- 1..1  状态 固定为 needs-action（需要回应）    accepted | declined | tentative | needs-action -->
					<status value="needs-action"/>
				</participant>
				<!-- 1..1 患者 -->
				<participant>
					<!-- 0..1 参与者角色 -->
					<type>
						<coding>
							<!-- 0..1 参与者角色 CodeSystem url  -->
							<system value="http://CodeSystem.hl7fhir.cn/encounter-participant-type"/>
							<!-- 0..1 参与者角色代码-->
							<code value="06"/>
							<!-- 0..1 参与者角色 -->
							<display value="患者"/>
						</coding>
					</type>
					<!-- 0..1  Reference(Patient）关联患者信息 -->
					<actor>
						<reference value="Patient/Patient001-example"/>
					</actor>
					<!-- 1..1  状态 固定为accepted（确定）    accepted | declined | tentative | needs-action -->
					<status value="accepted"/>
				</participant>
			</Appointment>
		</resource>
	</entry>
	<!--************************患者信息******************************-->
	<entry>
		<resource>
			<Patient xmlns="http://hl7.org/fhir">
				<!--0..1 患者ID-->
				<id value="Patient001-example"/>
				<meta>
					<profile value="http://StructureDefinition.hl7fhir.cn/Patient"/>
				</meta>
				<!--1..* 身份证件号 -->
				<identifier>
					<!--证件类型-->
					<type>
						<coding>
							<!-- 证件类型CodeSystem  地址 -->
							<system value="http://CodeSystem.hl7fhir.cn/identity-document-type"/>
							<!-- 0..1 证件类别编码 -->
							<code value="01"/>
							<!-- 0..1 证件类别名称 -->
							<display value="身份证"/>
						</coding>
					</type>
					<!--0..1 身份证件号码NamingSystem uri-->
					<system value="http://NamingSystem.hl7fhir.cn/identityDocument"/>
					<!-- 0..1 身份证件号码 -->
					<value value="511002938706190932"/>
				</identifier>
				<!-- 0..* 患者姓名 -->
				<name>
					<!-- 0..1 全名 -->
					<text value="张三"/>
				</name>
				<!-- 0..1 生理性别 -->
				<gender>
					<extension url="http://StructureDefinition.hl7fhir.cn/sexual-distinction-of-human">
						<valueCoding>
							<!-- 0..1 生理性别 CodeSystem url  地址-->
							<system value="http://CodeSystem.hl7fhir.cn/physiological-gender"/>
							<!-- 0..1 生理性别代码-->
							<code value="01"/>
							<!-- 0..1 生理性别说明 -->
							<display value="男"/>
						</valueCoding>
					</extension>
				</gender>
				<!--  0..* 联系电话 -->
				<telecom>
					<!--  0..1 类型 phone | fax | email | pager | url | sms | other -->
					<system value="phone"/>
					<!-- 0..1 电话号码 -->
					<value value="13387362763"/>
				</telecom>
				<!-- 0..1 出生日期 -->
				<birthDate value="1980-02-01"/>
				<!--0..1 地址-->
				<address>
					<!-- 0..1 地址的完整描述 -->
					<text value="[string]"/>
					<!--行政区划代码(由于行政区划为12位村) -->
					<extension url="http://StructureDefinition.hl7fhir.cn/AdministrativeDivision">
						<!--行政区划代码 -->
						<valueString value="5101002029378110"/>
					</extension>
				</address>

				<!--联系人 -->
				<contact>
					<relationship>
						<coding>
							<system value="http://CodeSystem.hl7fhir.cn/contact-relationship" />
							<!-- 联系人关系代码 -->
							<code value="father" />
							<!-- 联系人关系名称 -->
							<display value="父亲"/>
						</coding>
					</relationship>
					<!-- 联系人姓名 -->
					<name>
						<text value="李四" />
					</name>
				</contact>
				<!-- 0..1 婚姻状况 GB/T 2261.2-->
				<maritalStatus>
					<coding>
						<!-- 婚姻状况CodeSystem  地址 -->
						<system value="http://CodeSystem.hl7fhir.cn/marital-status"/>
						<!-- 0..1 婚姻状况编码 -->
						<code value="01"/>
						<!-- 0..1 婚姻状况 -->
						<display value="已婚"/>
					</coding>
				</maritalStatus>
				<!-- 民族 -->
				<extension url="http://StructureDefinition.hl7fhir.cn/ChineseEthnicity">
					<valueCoding>
						<system value="http://CodeSystem.hl7fhir.cn/nationalites-of-PRC"/>
						<!-- 民族编码 -->
						<code value="1"/>
						<!-- 民族名称 -->
						<display value="汉族"/>
					</valueCoding>
				</extension>
			</Patient>
		</resource>
	</entry>
	<!--************************转诊病历******************************-->
	<entry>
		<resource>
			<DocumentReference xmlns="http://hl7.org/fhir">
				<!--0..1 病历文档ID-->
				<id value="DocumentReference001-example"/>

				<meta>
					<profile value="http://StructureDefinition.hl7fhir.cn/medical-record-documentation"/>
				</meta>
				<!-- 0..1 病历文档标识符 -->
				<masterIdentifier>
					<!-- 0..1 病历文档标识符NamingSystem uri-->
					<system value="http://NamingSystem.hl7fhir.cn/document-Identifier"/>
					<!-- 0..1 病历文档标识符 -->
					<value value="1234567890"/>
				</masterIdentifier>
				<!-- 1..1 文档引用状态  current | superseded | entered-in-error -->
				<status >
					<extension url="http://StructureDefinition.hl7fhir.cn/resource-status">
						<valueCoding>
							<!-- 0..1 文档引用状态 CodeSystem url -->
							<system value="http://hl7.org/fhir/document-reference-status"/>
							<!-- 0..1 文档引用状态代码-->
							<code value="current"/>
							<!-- 0..1 文档引用状态说明 -->
							<display value="Current"/>
						</valueCoding>
					</extension>
				</status>
				<!-- 0..1 文档类型 （固定为 城乡居民健康档案基本数据集）-->
				<type>
					<coding>
						<!-- 文档类型CodeSystem  地址 -->
						<system value="http://CodeSystem.hl7fhir.cn/document-type"/>
						<!-- 0..1 文档类型编码 -->
						<code value="WS365-2011"/>
						<!-- 0..1 文档类型名称 -->
						<display value="城乡居民健康档案基本数据集"/>
					</coding>
				</type>
				<!-- 0..* 文档类别(固定为  转诊（院）记录) -->
				<category>
					<coding>
						<!-- 文档类别CodeSystem  地址 -->
						<system value="http://CodeSystem.hl7fhir.cn/document-category"/>
						<!-- 0..1 文档类别编码 -->
						<code value="HSDC00.05"/>
						<!-- 0..1 文档类别名称 -->
						<display value="转诊（院）记录"/>
					</coding>
				</category>
				<!-- 0..1 患者 -->
				<subject>
					<reference value="Patient/Patient001-example"/>
				</subject>
				<!-- 0..1 文档编写日期 -->
				<date value="2019-02-20T13:00:00Z"/>
				<!-- 0..* Reference(Practitioner|PractitionerRole|Organization|Device|
   Patient|RelatedPerson) 文档编写者 -->
				<author>
					<reference value="Practitioner/Practitioner001-example"/>
				</author>
				<!-- 0..1 文档审核者 -->
				<authenticator>
					<reference value="Practitioner/Practitioner001-example"/>
				</authenticator>
				<!-- 0..1 Reference(Organization) 管理机构（管理文档的医疗机构） -->
				<custodian>
					<reference value="Organization/Organization001-example"/>
				</custodian>
				<!-- 0..1 文档描述 -->
				<description value="城乡居民健康档案基本数据集-转诊（院）记录"/>
				<!-- 0..* 安全级别 -->
				<securityLabel>
					<coding>
						<!-- 安全级别CodeSystem  地址 -->
						<system value="http://CodeSystem.hl7fhir.cn/security-labels"/>
						<!-- 0..1 安全级别编码 -->
						<code value="N"/>
						<!-- 0..1 安全级别名称 -->
						<display value="中级"/>
					</coding>
				</securityLabel>
				<!-- 1..* 文档正文 -->
				<content>
					<!-- 1..1 附件 -->
					<attachment>
						<!-- 0..1 文档的Mime type -->
						<contentType value="HTML"/>
						<!-- 0..1 Human language of the content (BCP-47) （zh-CN）-->
						<language value="zh-CN"/>
						<!-- 0..1 文档URL -->
						<url value="http://document.com/medical-record-documentation-00001"/>
						<!-- 0..1 文件大小 -->
						<size value="24"/>
						<!-- 0..1 文档标题 -->
						<title value="转诊（院）记录"/>
						<!-- 0..1 创建该附件日期 -->
						<creation value="2019-02-20T13:00:00Z"/>
					</attachment>
				</content>
			</DocumentReference>
		</resource>
	</entry>
</Bundle>


